{
    "trial_results": [
        {
            "trial": 6,
            "delay": 0.0,
            "drop_rate": 0,
            "response_time": 2.374,
            "cpu_time": 0.19,
            "memory_change_bytes": 3018752,
            "n_threads": 10.0,
            "final_state": {
                "order_id": "4b032b5c-8d91-4d5d-b9a7-2c58265ffdc0",
                "item": "laptop",
                "qty": 2,
                "status": "reserved",
                "forward": false,
                "trace": [
                    {
                        "step": "order_agent_reasoning",
                        "out": "{\"status\": \"INIT\", \"forward\": true}",
                        "took": 0.946
                    },
                    {
                        "step": "db_tool_save_order",
                        "param": 2,
                        "took": 0.003
                    },
                    {
                        "step": "inventory_agent_reasoning",
                        "out": "{\n  \"status\": \"reserved\"\n}",
                        "took": 0.251
                    },
                    {
                        "step": "db_tool_update_stock",
                        "param": 2,
                        "took": 0.002
                    },
                    {
                        "step": "order_agent_reasoning",
                        "out": "{\"status\": \"reserved\", \"forward\": false}",
                        "took": 0.877
                    },
                    {
                        "step": "db_tool_update_order",
                        "param": "reserved",
                        "took": 0.002
                    }
                ]
            }
        },
        {
            "trial": 8,
            "delay": 0.0,
            "drop_rate": 0,
            "response_time": 2.907,
            "cpu_time": 0.2,
            "memory_change_bytes": 2662400,
            "n_threads": 10.0,
            "final_state": {
                "order_id": "5e2f800c-13b6-4ddf-8572-15c8c5460826",
                "item": "laptop",
                "qty": 2,
                "status": "reserved",
                "forward": false,
                "trace": [
                    {
                        "step": "order_agent_reasoning",
                        "out": "{\"status\": \"INIT\", \"forward\": true}",
                        "took": 1.054
                    },
                    {
                        "step": "db_tool_save_order",
                        "param": 2,
                        "took": 0.002
                    },
                    {
                        "step": "inventory_agent_reasoning",
                        "out": "{\n  \"status\": \"reserved\"\n}",
                        "took": 0.843
                    },
                    {
                        "step": "db_tool_update_stock",
                        "param": 2,
                        "took": 0.002
                    },
                    {
                        "step": "order_agent_reasoning",
                        "out": "{\n  \"status\": \"reserved\",\n  \"forward\": false\n}",
                        "took": 0.713
                    },
                    {
                        "step": "db_tool_update_order",
                        "param": "reserved",
                        "took": 0.002
                    }
                ]
            }
        },
        {
            "trial": 10,
            "delay": 0.0,
            "drop_rate": 0,
            "response_time": 2.915,
            "cpu_time": 0.19,
            "memory_change_bytes": 2461696,
            "n_threads": 10.0,
            "final_state": {
                "order_id": "73936c5c-691d-4a14-ba0f-66a69ce5ff13",
                "item": "laptop",
                "qty": 2,
                "status": "reserved",
                "forward": false,
                "trace": [
                    {
                        "step": "order_agent_reasoning",
                        "out": "{\"status\": \"INIT\", \"forward\": true}",
                        "took": 1.072
                    },
                    {
                        "step": "db_tool_save_order",
                        "param": 2,
                        "took": 0.002
                    },
                    {
                        "step": "inventory_agent_reasoning",
                        "out": "{\n\"status\": \"reserved\"\n}",
                        "took": 0.889
                    },
                    {
                        "step": "db_tool_update_stock",
                        "param": 2,
                        "took": 0.002
                    },
                    {
                        "step": "order_agent_reasoning",
                        "out": "{\"status\": \"reserved\", \"forward\": false}",
                        "took": 0.655
                    },
                    {
                        "step": "db_tool_update_order",
                        "param": "reserved",
                        "took": 0.001
                    }
                ]
            }
        },
        {
            "trial": 1,
            "delay": 0.0,
            "drop_rate": 0,
            "response_time": 2.929,
            "cpu_time": 0.21,
            "memory_change_bytes": 3383296,
            "n_threads": 10.0,
            "final_state": {
                "order_id": "c49426c6-2f3a-4a10-9e0d-8b679b4353b6",
                "item": "laptop",
                "qty": 2,
                "status": "reserved",
                "forward": false,
                "trace": [
                    {
                        "step": "order_agent_reasoning",
                        "out": "{\"status\": \"INIT\", \"forward\": true}",
                        "took": 1.073
                    },
                    {
                        "step": "db_tool_save_order",
                        "param": 2,
                        "took": 0.002
                    },
                    {
                        "step": "inventory_agent_reasoning",
                        "out": "{\n\"status\": \"reserved\"\n}",
                        "took": 0.889
                    },
                    {
                        "step": "db_tool_update_stock",
                        "param": 2,
                        "took": 0.001
                    },
                    {
                        "step": "order_agent_reasoning",
                        "out": "{\"status\": \"reserved\", \"forward\": false}",
                        "took": 0.656
                    },
                    {
                        "step": "db_tool_update_order",
                        "param": "reserved",
                        "took": 0.001
                    }
                ]
            }
        },
        {
            "trial": 4,
            "delay": 0.0,
            "drop_rate": 0,
            "response_time": 3.007,
            "cpu_time": 0.22,
            "memory_change_bytes": 3235840,
            "n_threads": 10.0,
            "final_state": {
                "order_id": "9bcc4bb2-e2cc-4004-a231-813729fd7bee",
                "item": "laptop",
                "qty": 2,
                "status": "reserved",
                "forward": false,
                "trace": [
                    {
                        "step": "order_agent_reasoning",
                        "out": "{\"status\": \"INIT\", \"forward\": true}",
                        "took": 1.055
                    },
                    {
                        "step": "db_tool_save_order",
                        "param": 2,
                        "took": 0.002
                    },
                    {
                        "step": "inventory_agent_reasoning",
                        "out": "{\n  \"status\": \"reserved\"\n}",
                        "took": 0.949
                    },
                    {
                        "step": "db_tool_update_stock",
                        "param": 2,
                        "took": 0.003
                    },
                    {
                        "step": "order_agent_reasoning",
                        "out": "{\"status\": \"reserved\", \"forward\": false}",
                        "took": 0.701
                    },
                    {
                        "step": "db_tool_update_order",
                        "param": "reserved",
                        "took": 0.001
                    }
                ]
            }
        },
        {
            "trial": 2,
            "delay": 0.0,
            "drop_rate": 0,
            "response_time": 3.012,
            "cpu_time": 0.22,
            "memory_change_bytes": 3383296,
            "n_threads": 10.0,
            "final_state": {
                "order_id": "e3ebc254-ab45-4f97-bbb5-9895e1cdcc1f",
                "item": "laptop",
                "qty": 2,
                "status": "reserved",
                "forward": false,
                "trace": [
                    {
                        "step": "order_agent_reasoning",
                        "out": "{\"status\": \"INIT\", \"forward\": true}",
                        "took": 1.049
                    },
                    {
                        "step": "db_tool_save_order",
                        "param": 2,
                        "took": 0.002
                    },
                    {
                        "step": "inventory_agent_reasoning",
                        "out": "{\n  \"status\": \"reserved\"\n}",
                        "took": 0.964
                    },
                    {
                        "step": "db_tool_update_stock",
                        "param": 2,
                        "took": 0.001
                    },
                    {
                        "step": "order_agent_reasoning",
                        "out": "{\"status\": \"reserved\", \"forward\": false}",
                        "took": 0.701
                    },
                    {
                        "step": "db_tool_update_order",
                        "param": "reserved",
                        "took": 0.001
                    }
                ]
            }
        },
        {
            "trial": 9,
            "delay": 0.0,
            "drop_rate": 0,
            "response_time": 3.025,
            "cpu_time": 0.2,
            "memory_change_bytes": 2482176,
            "n_threads": 10.0,
            "final_state": {
                "order_id": "8540873c-4282-421d-958d-fc4052f99146",
                "item": "laptop",
                "qty": 2,
                "status": "reserved",
                "forward": false,
                "trace": [
                    {
                        "step": "order_agent_reasoning",
                        "out": "{\"status\": \"INIT\", \"forward\": true}",
                        "took": 1.064
                    },
                    {
                        "step": "db_tool_save_order",
                        "param": 2,
                        "took": 0.002
                    },
                    {
                        "step": "inventory_agent_reasoning",
                        "out": "{\n  \"status\": \"reserved\"\n}",
                        "took": 0.953
                    },
                    {
                        "step": "db_tool_update_stock",
                        "param": 2,
                        "took": 0.001
                    },
                    {
                        "step": "order_agent_reasoning",
                        "out": "{\"status\": \"reserved\", \"forward\": false}",
                        "took": 0.703
                    },
                    {
                        "step": "db_tool_update_order",
                        "param": "reserved",
                        "took": 0.001
                    }
                ]
            }
        },
        {
            "trial": 3,
            "delay": 0.0,
            "drop_rate": 0,
            "response_time": 3.054,
            "cpu_time": 0.22,
            "memory_change_bytes": 3264512,
            "n_threads": 10.0,
            "final_state": {
                "order_id": "a4a7bc69-b983-4c2e-af81-9c157c9c9394",
                "item": "laptop",
                "qty": 2,
                "status": "reserved",
                "forward": false,
                "trace": [
                    {
                        "step": "order_agent_reasoning",
                        "out": "{\"status\": \"INIT\", \"forward\": true}",
                        "took": 1.068
                    },
                    {
                        "step": "db_tool_save_order",
                        "param": 2,
                        "took": 0.002
                    },
                    {
                        "step": "inventory_agent_reasoning",
                        "out": "{\n  \"status\": \"reserved\"\n}",
                        "took": 1.013
                    },
                    {
                        "step": "db_tool_update_stock",
                        "param": 2,
                        "took": 0.002
                    },
                    {
                        "step": "order_agent_reasoning",
                        "out": "{\"status\": \"reserved\", \"forward\": false}",
                        "took": 0.675
                    },
                    {
                        "step": "db_tool_update_order",
                        "param": "reserved",
                        "took": 0.002
                    }
                ]
            }
        },
        {
            "trial": 5,
            "delay": 0.0,
            "drop_rate": 0,
            "response_time": 3.055,
            "cpu_time": 0.23,
            "memory_change_bytes": 3133440,
            "n_threads": 10.0,
            "final_state": {
                "order_id": "8bd1a2e2-154c-4c1a-9b74-d47a0305def9",
                "item": "laptop",
                "qty": 2,
                "status": "reserved",
                "forward": false,
                "trace": [
                    {
                        "step": "order_agent_reasoning",
                        "out": "{\"status\": \"INIT\", \"forward\": true}",
                        "took": 1.054
                    },
                    {
                        "step": "db_tool_save_order",
                        "param": 2,
                        "took": 0.002
                    },
                    {
                        "step": "inventory_agent_reasoning",
                        "out": "{\n  \"status\": \"reserved\"\n}",
                        "took": 1.019
                    },
                    {
                        "step": "db_tool_update_stock",
                        "param": 2,
                        "took": 0.001
                    },
                    {
                        "step": "order_agent_reasoning",
                        "out": "{\"status\": \"reserved\", \"forward\": false}",
                        "took": 0.676
                    },
                    {
                        "step": "db_tool_update_order",
                        "param": "reserved",
                        "took": 0.001
                    }
                ]
            }
        },
        {
            "trial": 7,
            "delay": 0.0,
            "drop_rate": 0,
            "response_time": 3.098,
            "cpu_time": 0.22,
            "memory_change_bytes": 2433024,
            "n_threads": 10.0,
            "final_state": {
                "order_id": "85273374-65fc-4596-9003-2950b5ca213e",
                "item": "laptop",
                "qty": 2,
                "status": "reserved",
                "forward": false,
                "trace": [
                    {
                        "step": "order_agent_reasoning",
                        "out": "{\n  \"status\": \"INIT\",\n  \"forward\": true\n}",
                        "took": 1.09
                    },
                    {
                        "step": "db_tool_save_order",
                        "param": 2,
                        "took": 0.002
                    },
                    {
                        "step": "inventory_agent_reasoning",
                        "out": "{\n  \"status\": \"reserved\"\n}",
                        "took": 0.999
                    },
                    {
                        "step": "db_tool_update_stock",
                        "param": 2,
                        "took": 0.001
                    },
                    {
                        "step": "order_agent_reasoning",
                        "out": "{\n  \"status\": \"reserved\",\n  \"forward\": false\n}",
                        "took": 0.72
                    },
                    {
                        "step": "db_tool_update_order",
                        "param": "reserved",
                        "took": 0.001
                    }
                ]
            }
        }
    ],
    "final_summary": {
        "n_trials": 10,
        "n_threads": 10.0,
        "stock_left": -10,
        "total_completed_orders": 10,
        "total_pending_orders": 0,
        "total_oos_orders": 0,
        "expected_total_reserved": 5,
        "final_ec_state": "FAIL",
        "failure_rate": 5.0
    }
}